June 12, 2024   20:51:34
A.C. Impedance
File: d:\profile\a4336\desktop\results\10%\test 1\eis -0,48 v.txt
Data Source:  Experiment
Instrument Model:  CHI760E
Header: 
Note: 

Init E (V) = -0.48
High Frequency (Hz) = 1e+6
Low Frequency (Hz) = 1
Imp SF
Amplitude (V) = 0.005
Quiet Time (sec) = 2

Freq/Hz, Z'/ohm, Z"/ohm, Z/ohm, Phase/deg

9.990e+5, 1.780e+0, 1.567e-1, 1.787e+0, 5.0
8.252e+5, 1.794e+0, -1.875e-2, 1.794e+0, -0.6
6.816e+5, 1.757e+0, -2.584e-1, 1.776e+0, -8.4
5.625e+5, 1.733e+0, -4.832e-1, 1.799e+0, -15.6
4.639e+5, 1.723e+0, -7.473e-1, 1.878e+0, -23.5
3.828e+5, 1.758e+0, -1.021e+0, 2.033e+0, -30.1
3.164e+5, 1.826e+0, -1.345e+0, 2.268e+0, -36.4
2.607e+5, 2.003e+0, -1.684e+0, 2.617e+0, -40.1
2.158e+5, 2.265e+0, -2.071e+0, 3.069e+0, -42.4
1.777e+5, 2.520e+0, -2.521e+0, 3.564e+0, -45.0
1.465e+5, 2.799e+0, -3.042e+0, 4.133e+0, -47.4
1.211e+5, 3.150e+0, -3.640e+0, 4.814e+0, -49.1
9.961e+4, 3.633e+0, -4.296e+0, 5.626e+0, -49.8
8.252e+4, 4.291e+0, -4.987e+0, 6.579e+0, -49.3
6.812e+4, 5.117e+0, -5.638e+0, 7.614e+0, -47.8
5.625e+4, 6.107e+0, -6.206e+0, 8.707e+0, -45.5
4.644e+4, 7.178e+0, -6.590e+0, 9.744e+0, -42.6
3.833e+4, 8.276e+0, -6.758e+0, 1.069e+1, -39.2
3.164e+4, 9.406e+0, -6.783e+0, 1.160e+1, -35.8
2.612e+4, 1.049e+1, -6.668e+0, 1.243e+1, -32.4
2.153e+4, 1.151e+1, -6.472e+0, 1.320e+1, -29.4
1.777e+4, 1.241e+1, -6.235e+0, 1.389e+1, -26.7
1.470e+4, 1.316e+1, -5.992e+0, 1.446e+1, -24.5
1.211e+4, 1.384e+1, -5.811e+0, 1.502e+1, -22.8
1.001e+4, 1.440e+1, -5.695e+0, 1.548e+1, -21.6
8.252e+3, 1.483e+1, -5.662e+0, 1.587e+1, -20.9
6.812e+3, 1.520e+1, -5.743e+0, 1.625e+1, -20.7
5.625e+3, 1.560e+1, -5.958e+0, 1.670e+1, -20.9
4.643e+3, 1.596e+1, -6.284e+0, 1.715e+1, -21.5
3.833e+3, 1.624e+1, -6.721e+0, 1.757e+1, -22.5
3.164e+3, 1.663e+1, -7.311e+0, 1.816e+1, -23.7
2.612e+3, 1.710e+1, -8.065e+0, 1.891e+1, -25.2
2.153e+3, 1.770e+1, -8.995e+0, 1.985e+1, -26.9
1.777e+3, 1.838e+1, -1.008e+1, 2.096e+1, -28.7
1.470e+3, 1.917e+1, -1.134e+1, 2.228e+1, -30.6
1.211e+3, 2.010e+1, -1.280e+1, 2.383e+1, -32.5
1.001e+3, 2.108e+1, -1.445e+1, 2.555e+1, -34.4
8.252e+2, 2.222e+1, -1.633e+1, 2.758e+1, -36.3
6.836e+2, 2.361e+1, -1.854e+1, 3.002e+1, -38.1
5.615e+2, 2.528e+1, -2.111e+1, 3.293e+1, -39.9
4.639e+2, 2.722e+1, -2.403e+1, 3.631e+1, -41.4
3.809e+2, 2.936e+1, -2.728e+1, 4.008e+1, -42.9
3.174e+2, 3.180e+1, -3.095e+1, 4.438e+1, -44.2
2.588e+2, 3.475e+1, -3.511e+1, 4.940e+1, -45.3
2.148e+2, 3.828e+1, -3.976e+1, 5.519e+1, -46.1
1.758e+2, 4.235e+1, -4.483e+1, 6.167e+1, -46.6
1.465e+2, 4.698e+1, -5.020e+1, 6.875e+1, -46.9
1.221e+2, 5.255e+1, -5.622e+1, 7.695e+1, -46.9
9.766e+1, 5.896e+1, -6.254e+1, 8.595e+1, -46.7
8.254e+1, 6.613e+1, -6.906e+1, 9.561e+1, -46.2
6.813e+1, 7.469e+1, -7.639e+1, 1.068e+2, -45.6
5.623e+1, 8.421e+1, -8.403e+1, 1.190e+2, -44.9
4.642e+1, 9.458e+1, -9.173e+1, 1.318e+2, -44.1
3.831e+1, 1.062e+2, -9.957e+1, 1.456e+2, -43.2
3.162e+1, 1.192e+2, -1.074e+2, 1.604e+2, -42.0
2.610e+1, 1.335e+2, -1.153e+2, 1.764e+2, -40.8
2.154e+1, 1.492e+2, -1.229e+2, 1.933e+2, -39.5
1.778e+1, 1.664e+2, -1.300e+2, 2.111e+2, -38.0
1.468e+1, 1.851e+2, -1.365e+2, 2.300e+2, -36.4
1.212e+1, 2.051e+2, -1.421e+2, 2.495e+2, -34.7
1.000e+1, 2.270e+2, -1.457e+2, 2.697e+2, -32.7
8.254e+0, 2.502e+2, -1.476e+2, 2.905e+2, -30.5
6.813e+0, 2.734e+2, -1.482e+2, 3.110e+2, -28.5
5.623e+0, 2.964e+2, -1.473e+2, 3.310e+2, -26.4
4.642e+0, 3.190e+2, -1.447e+2, 3.503e+2, -24.4
3.831e+0, 3.412e+2, -1.402e+2, 3.689e+2, -22.3
3.162e+0, 3.620e+2, -1.339e+2, 3.860e+2, -20.3
2.610e+0, 3.814e+2, -1.261e+2, 4.016e+2, -18.3
2.154e+0, 3.991e+2, -1.171e+2, 4.159e+2, -16.3
1.778e+0, 4.157e+2, -1.072e+2, 4.293e+2, -14.5
1.468e+0, 4.305e+2, -9.673e+1, 4.412e+2, -12.7
1.212e+0, 4.417e+2, -8.642e+1, 4.500e+2, -11.1
1.000e+0, 4.495e+2, -7.638e+1, 4.559e+2, -9.6
